Wavenumber,Intensity
650.4205,0.231294
652.2841,0.229833
654.1478,0.227636
656.0115,0.226338
657.8751,0.225377
659.7388,0.223989
661.6025,0.222058
663.4661,0.219843
665.3298,0.216442
667.1935,0.216436
669.0571,0.220770
670.9208,0.217366
672.7845,0.213632
674.6481,0.211757
676.5118,0.210182
678.3755,0.209719
680.2392,0.208501
682.1028,0.206497
683.9665,0.204674
685.8302,0.203382
687.6938,0.202772
689.5575,0.202024
691.4212,0.200435
693.2848,0.198993
695.1485,0.197143
697.0122,0.195713
698.8758,0.194896
700.7395,0.194093
702.6032,0.192556
704.4669,0.190868
706.3305,0.189974
708.1942,0.189251
710.0579,0.187371
711.9215,0.185750
713.7852,0.184454
715.6489,0.183037
717.5125,0.181643
719.3762,0.180813
721.2399,0.179633
723.1035,0.177839
724.9672,0.176152
726.8309,0.175021
728.6945,0.173912
730.5582,0.172870
732.4219,0.171430
734.2856,0.169841
736.1492,0.168456
738.0129,0.167375
739.8766,0.166033
741.7402,0.164467
743.6039,0.163124
745.4676,0.161988
747.3312,0.160559
749.1949,0.158910
751.0586,0.157284
752.9222,0.156287
754.7859,0.155215
756.6496,0.153648
758.5132,0.152067
760.3769,0.150534
762.2406,0.148977
764.1043,0.147943
765.9679,0.146680
767.8316,0.145077
769.6953,0.143578
771.5589,0.142148
773.4226,0.140617
775.2863,0.139152
777.1499,0.137692
779.0136,0.136346
780.8773,0.134797
782.7409,0.133310
784.6046,0.131900
786.4683,0.130498
788.3320,0.128941
790.1956,0.127361
792.0593,0.125903
793.9230,0.124518
795.7866,0.123023
797.6503,0.121724
799.5140,0.120245
801.3776,0.118535
803.2413,0.117088
805.1050,0.115694
806.9686,0.114266
808.8323,0.112910
810.6960,0.111434
812.5596,0.110088
814.4233,0.108878
816.2870,0.107521
818.1507,0.106142
820.0143,0.104723
821.8780,0.103022
823.7417,0.101616
825.6053,0.100367
827.4690,0.099088
829.3327,0.097761
831.1963,0.096511
833.0600,0.095405
834.9237,0.094288
836.7873,0.092928
838.6510,0.091658
840.5147,0.090356
842.3784,0.089003
844.2420,0.087800
846.1057,0.086597
847.9694,0.085422
849.8330,0.084385
851.6967,0.083212
853.5604,0.082051
855.4240,0.080974
857.2877,0.079900
859.1514,0.078758
861.0150,0.077609
862.8787,0.076561
864.7424,0.075552
866.6060,0.074476
868.4697,0.073474
870.3334,0.072593
872.1971,0.071699
874.0607,0.070726
875.9244,0.069824
877.7881,0.068950
879.6517,0.068094
881.5154,0.067297
883.3791,0.066524
885.2427,0.065715
887.1064,0.064895
888.9701,0.064121
890.8337,0.063408
892.6974,0.062709
894.5611,0.061967
896.4247,0.061276
898.2884,0.060683
900.1521,0.059960
902.0158,0.059294
903.8794,0.058710
905.7431,0.058103
907.6068,0.057487
909.4704,0.056977
911.3341,0.056532
913.1978,0.056043
915.0614,0.055553
916.9251,0.055065
918.7888,0.054571
920.6524,0.054139
922.5161,0.053631
924.3798,0.053146
926.2435,0.052764
928.1071,0.052355
929.9708,0.051946
931.8345,0.051581
933.6981,0.051177
935.5618,0.050755
937.4255,0.050349
939.2891,0.049960
941.1528,0.049589
943.0165,0.049228
944.8801,0.048851
946.7438,0.048469
948.6075,0.048147
950.4711,0.047849
952.3348,0.047522
954.1985,0.047231
956.0622,0.046910
957.9258,0.046584
959.7895,0.046303
961.6532,0.046113
963.5168,0.045897
965.3805,0.045605
967.2442,0.045352
969.1078,0.045144
970.9715,0.044953
972.8352,0.044806
974.6988,0.044696
976.5625,0.044524
978.4262,0.044378
980.2899,0.044304
982.1535,0.044244
984.0172,0.044195
985.8809,0.044120
987.7445,0.044037
989.6082,0.043950
991.4719,0.043852
993.3355,0.043735
995.1992,0.043661
997.0629,0.043588
998.9265,0.043496
1000.7902,0.043358
1002.6539,0.043200
1004.5175,0.043058
1006.3812,0.042960
1008.2449,0.042909
1010.1086,0.042908
1011.9722,0.042912
1013.8359,0.042945
1015.6996,0.042968
1017.5632,0.042963
1019.4269,0.042971
1021.2906,0.043095
1023.1542,0.043210
1025.0179,0.043300
1026.8816,0.043340
1028.7452,0.043388
1030.6089,0.043471
1032.4726,0.043542
1034.3362,0.043616
1036.1999,0.043715
1038.0636,0.043810
1039.9273,0.043859
1041.7909,0.043928
1043.6546,0.043987
1045.5183,0.043974
1047.3819,0.043955
1049.2456,0.043952
1051.1093,0.043914
1052.9729,0.043859
1054.8366,0.043802
1056.7003,0.043779
1058.5639,0.043846
1060.4276,0.043964
1062.2913,0.044069
1064.1550,0.044116
1066.0186,0.044197
1067.8823,0.044325
1069.7460,0.044434
1071.6096,0.044550
1073.4733,0.044764
1075.3370,0.044938
1077.2006,0.045061
1079.0643,0.045162
1080.9280,0.045263
1082.7916,0.045230
1084.6553,0.045129
1086.5190,0.045017
1088.3826,0.044858
1090.2463,0.044671
1092.1100,0.044493
1093.9737,0.044308
1095.8373,0.044097
1097.7010,0.043983
1099.5647,0.043899
1101.4283,0.043697
1103.2920,0.043501
1105.1557,0.043347
1107.0193,0.043160
1108.8830,0.042963
1110.7467,0.042871
1112.6103,0.042783
1114.4740,0.042611
1116.3377,0.042410
1118.2014,0.042205
1120.0650,0.042050
1121.9287,0.041929
1123.7924,0.041746
1125.6560,0.041567
1127.5197,0.041420
1129.3834,0.041225
1131.2470,0.041029
1133.1107,0.040891
1134.9744,0.040741
1136.8380,0.040622
1138.7017,0.040551
1140.5654,0.040523
1142.4290,0.040458
1144.2927,0.040369
1146.1564,0.040240
1148.0201,0.040026
1149.8837,0.039805
1151.7474,0.039675
1153.6111,0.039565
1155.4747,0.039473
1157.3384,0.039385
1159.2021,0.039293
1161.0657,0.039212
1162.9294,0.039122
1164.7931,0.039030
1166.6567,0.038902
1168.5204,0.038791
1170.3841,0.038665
1172.2477,0.038544
1174.1114,0.038414
1175.9751,0.038291
1177.8388,0.038202
1179.7024,0.038103
1181.5661,0.038022
1183.4298,0.037945
1185.2934,0.037890
1187.1571,0.037893
1189.0208,0.037883
1190.8844,0.037839
1192.7481,0.037819
1194.6118,0.037861
1196.4754,0.037884
1198.3391,0.037893
1200.2028,0.037890
1202.0665,0.037899
1203.9301,0.037929
1205.7938,0.037898
1207.6575,0.037876
1209.5211,0.037873
1211.3848,0.037875
1213.2485,0.037811
1215.1121,0.037757
1216.9758,0.037776
1218.8395,0.037811
1220.7031,0.037796
1222.5668,0.037786
1224.4305,0.037756
1226.2941,0.037754
1228.1578,0.037779
1230.0215,0.037796
1231.8852,0.037743
1233.7488,0.037739
1235.6125,0.037736
1237.4762,0.037716
1239.3398,0.037691
1241.2035,0.037682
1243.0672,0.037686
1244.9308,0.037661
1246.7945,0.037603
1248.6582,0.037539
1250.5218,0.037438
1252.3855,0.037408
1254.2492,0.037333
1256.1129,0.037239
1257.9765,0.037230
1259.8402,0.037228
1261.7039,0.037130
1263.5675,0.037035
1265.4312,0.036997
1267.2949,0.036977
1269.1585,0.036977
1271.0222,0.036981
1272.8859,0.036957
1274.7495,0.036921
1276.6132,0.036878
1278.4769,0.036865
1280.3405,0.036868
1282.2042,0.036866
1284.0679,0.036834
1285.9316,0.036828
1287.7952,0.036852
1289.6589,0.036873
1291.5226,0.036855
1293.3862,0.036879
1295.2499,0.036910
1297.1136,0.036966
1298.9772,0.037028
1300.8409,0.037134
1302.7046,0.037220
1304.5682,0.037228
1306.4319,0.037242
1308.2956,0.037286
1310.1592,0.037363
1312.0229,0.037510
1313.8866,0.037586
1315.7503,0.037567
1317.6139,0.037665
1319.4776,0.037759
1321.3413,0.037620
1323.2049,0.037471
1325.0686,0.037473
1326.9323,0.037475
1328.7959,0.037461
1330.6596,0.037466
1332.5233,0.037478
1334.3869,0.037414
1336.2506,0.037462
1338.1143,0.037834
1339.9780,0.038145
1341.8416,0.037897
1343.7053,0.037659
1345.5690,0.037715
1347.4326,0.037807
1349.2963,0.037915
1351.1600,0.037914
1353.0236,0.037900
1354.8873,0.037851
1356.7510,0.037664
1358.6146,0.037512
1360.4783,0.037753
1362.3420,0.038288
1364.2056,0.038220
1366.0693,0.037762
1367.9330,0.037751
1369.7967,0.037668
1371.6603,0.037615
1373.5240,0.038104
1375.3877,0.038358
1377.2513,0.037938
1379.1150,0.037839
1380.9787,0.037630
1382.8423,0.037454
1384.7060,0.037461
1386.5697,0.038035
1388.4333,0.038180
1390.2970,0.037520
1392.1607,0.037292
1394.0244,0.037924
1395.8880,0.038510
1397.7517,0.038425
1399.6154,0.038616
1401.4790,0.038144
1403.3427,0.038212
1405.2064,0.038771
1407.0700,0.038659
1408.9337,0.038491
1410.7974,0.038563
1412.6610,0.038310
1414.5247,0.037976
1416.3884,0.038075
1418.2520,0.039045
1420.1157,0.039308
1421.9794,0.038108
1423.8431,0.037901
1425.7067,0.037561
1427.5704,0.037190
1429.4341,0.037378
1431.2977,0.037021
1433.1614,0.036523
1435.0251,0.036914
1436.8887,0.038194
1438.7524,0.037410
1440.6161,0.036590
1442.4797,0.036458
1444.3434,0.036337
1446.2071,0.036552
1448.0707,0.036910
1449.9344,0.036387
1451.7981,0.035688
1453.6618,0.035550
1455.5254,0.036675
1457.3891,0.038954
1459.2528,0.037511
1461.1164,0.036015
1462.9801,0.035756
1464.8438,0.036567
1466.7074,0.035879
1468.5711,0.035002
1470.4348,0.035071
1472.2984,0.036647
1474.1621,0.036759
1476.0258,0.036088
1477.8895,0.035477
1479.7531,0.035063
1481.6168,0.035076
1483.4805,0.034641
1485.3441,0.034491
1487.2078,0.035175
1489.0715,0.036089
1490.9351,0.036170
1492.7988,0.034978
1494.6625,0.035017
1496.5261,0.036383
1498.3898,0.036649
1500.2535,0.035812
1502.1171,0.034980
1503.9808,0.035062
1505.8445,0.038133
1507.7082,0.040388
1509.5718,0.038630
1511.4355,0.037857
1513.2992,0.037777
1515.1628,0.038046
1517.0265,0.039064
1518.8902,0.039131
1520.7538,0.040635
1522.6175,0.041634
1524.4812,0.041267
1526.3448,0.041858
1528.2085,0.041870
1530.0722,0.041706
1531.9359,0.042328
1533.7995,0.043521
1535.6632,0.042576
1537.5269,0.042745
1539.3905,0.046516
1541.2542,0.048996
1543.1179,0.048430
1544.9815,0.048261
1546.8452,0.047793
1548.7089,0.047994
1550.5725,0.048681
1552.4362,0.048356
1554.2999,0.048769
1556.1635,0.049464
1558.0272,0.054280
1559.8909,0.057809
1561.7546,0.054325
1563.6182,0.053206
1565.4819,0.053866
1567.3456,0.054681
1569.2092,0.056938
1571.0729,0.057576
1572.9366,0.057236
1574.8002,0.059628
1576.6639,0.063639
1578.5276,0.063935
1580.3912,0.064427
1582.2549,0.066185
1584.1186,0.068331
1585.9822,0.070588
1587.8459,0.072968
1589.7096,0.075643
1591.5733,0.078566
1593.4369,0.081803
1595.3006,0.085424
1597.1643,0.088983
1599.0279,0.092741
1600.8916,0.097043
1602.7553,0.101650
1604.6189,0.106291
1606.4826,0.111230
1608.3463,0.116750
1610.2099,0.121584
1612.0736,0.125453
1613.9373,0.129781
1615.8010,0.138067
1617.6646,0.145652
1619.5283,0.146955
1621.3920,0.149909
1623.2556,0.156361
1625.1193,0.159839
1626.9830,0.161911
1628.8466,0.163654
1630.7103,0.162922
1632.5740,0.162339
1634.4376,0.166154
1636.3013,0.170723
1638.1650,0.167317
1640.0286,0.163029
1641.8923,0.159519
1643.7560,0.156895
1645.6197,0.156617
1647.4833,0.154761
1649.3470,0.148677
1651.2107,0.146309
1653.0743,0.150259
1654.9380,0.144148
1656.8017,0.136271
1658.6653,0.130791
1660.5290,0.126773
1662.3927,0.123388
1664.2563,0.118178
1666.1200,0.112842
1667.9837,0.109441
1669.8474,0.106116
1671.7110,0.101115
1673.5747,0.096987
1675.4384,0.093586
1677.3020,0.088026
1679.1657,0.083407
1681.0294,0.079533
1682.8930,0.077820
1684.7567,0.075621
1686.6204,0.070202
1688.4840,0.066087
1690.3477,0.062171
1692.2114,0.058474
1694.0750,0.055847
1695.9387,0.054134
1697.8024,0.051331
1699.6661,0.050457
1701.5297,0.047450
1703.3934,0.044323
1705.2571,0.042565
1707.1207,0.040247
1708.9844,0.037864
1710.8481,0.035662
1712.7117,0.034041
1714.5754,0.033144
1716.4391,0.032752
1718.3027,0.031969
1720.1664,0.029675
1722.0301,0.028037
1723.8937,0.026755
1725.7574,0.025548
1727.6211,0.024399
1729.4848,0.023629
1731.3484,0.022995
1733.2121,0.023132
1735.0758,0.022373
1736.9394,0.020738
1738.8031,0.020250
1740.6668,0.019628
1742.5304,0.018928
1744.3941,0.018133
1746.2578,0.017643
1748.1214,0.017463
1749.9851,0.017298
1751.8488,0.016625
1753.7125,0.015397
1755.5761,0.014875
1757.4398,0.014662
1759.3035,0.014217
1761.1671,0.014009
1763.0308,0.013456
1764.8945,0.012761
1766.7581,0.012524
1768.6218,0.012477
1770.4855,0.012433
1772.3491,0.012459
1774.2128,0.011754
1776.0765,0.011323
1777.9401,0.010956
1779.8038,0.010949
1781.6675,0.010661
1783.5312,0.010410
1785.3948,0.010032
1787.2585,0.009782
1789.1222,0.009582
1790.9858,0.009676
1792.8495,0.009675
1794.7132,0.009407
1796.5768,0.009079
1798.4405,0.008879
1800.3042,0.008919
1802.1678,0.008821
1804.0315,0.008515
1805.8952,0.008221
1807.7589,0.008037
1809.6225,0.008013
1811.4862,0.007928
1813.3499,0.007629
1815.2135,0.007349
1817.0772,0.007273
1818.9409,0.007360
1820.8045,0.007492
1822.6682,0.007438
1824.5319,0.007585
1826.3955,0.007587
1828.2592,0.007500
1830.1229,0.007395
1831.9865,0.007271
1833.8502,0.007116
1835.7139,0.007015
1837.5776,0.007135
1839.4412,0.007045
1841.3049,0.007002
1843.1686,0.007321
1845.0322,0.007612
1846.8959,0.007532
1848.7596,0.007125
1850.6232,0.006845
1852.4869,0.007005
1854.3506,0.007024
1856.2142,0.006974
1858.0779,0.006938
1859.9416,0.007027
1861.8052,0.006973
1863.6689,0.006997
1865.5326,0.006998
1867.3963,0.007222
1869.2599,0.007441
1871.1236,0.007306
1872.9873,0.007220
1874.8509,0.007264
1876.7146,0.007177
1878.5783,0.007172
1880.4419,0.007077
1882.3056,0.007069
1884.1693,0.007346
1886.0329,0.007372
1887.8966,0.007293
1889.7603,0.007507
1891.6240,0.007534
1893.4876,0.007535
1895.3513,0.007495
1897.2150,0.007458
1899.0786,0.007454
1900.9423,0.007525
1902.8060,0.007487
1904.6696,0.007593
1906.5333,0.007674
1908.3970,0.007661
1910.2606,0.007508
1912.1243,0.007563
1913.9880,0.007619
1915.8516,0.007762
1917.7153,0.008116
1919.5790,0.008315
1921.4427,0.008249
1923.3063,0.008137
1925.1700,0.008145
1927.0337,0.008088
1928.8973,0.007974
1930.7610,0.007920
1932.6247,0.007780
1934.4883,0.007903
1936.3520,0.008307
1938.2157,0.008607
1940.0793,0.008449
1941.9430,0.008635
1943.8067,0.008861
1945.6704,0.008724
1947.5340,0.008485
1949.3977,0.008573
1951.2614,0.008783
1953.1250,0.009125
1954.9887,0.008698
1956.8524,0.008247
1958.7160,0.008613
1960.5797,0.009008
1962.4434,0.009233
1964.3070,0.009889
1966.1707,0.009787
1968.0344,0.009626
1969.8980,0.009416
1971.7617,0.009512
1973.6254,0.009952
1975.4891,0.010574
1977.3527,0.011969
1979.2164,0.013106
1981.0801,0.012517
1982.9437,0.012049
1984.8074,0.012207
1986.6711,0.012048
1988.5347,0.011523
1990.3984,0.011817
1992.2621,0.012236
1994.1257,0.012171
1995.9894,0.011565
1997.8531,0.011172
1999.7167,0.011374
2001.5804,0.011738
2003.4441,0.011688
2005.3078,0.011938
2007.1714,0.012416
2009.0351,0.012763
2010.8988,0.012690
2012.7624,0.012593
2014.6261,0.012304
2016.4898,0.012705
2018.3534,0.013370
2020.2171,0.013369
2022.0808,0.012772
2023.9444,0.012886
2025.8081,0.013591
2027.6718,0.013808
2029.5355,0.013374
2031.3991,0.013660
2033.2628,0.014165
2035.1265,0.014532
2036.9901,0.014979
2038.8538,0.015691
2040.7175,0.015896
2042.5811,0.015406
2044.4448,0.015140
2046.3085,0.015644
2048.1721,0.016466
2050.0358,0.017196
2051.8995,0.016715
2053.7631,0.015954
2055.6268,0.016097
2057.4905,0.016405
2059.3542,0.016497
2061.2178,0.016833
2063.0815,0.017072
2064.9452,0.016895
2066.8088,0.016739
2068.6725,0.016981
2070.5362,0.016972
2072.3998,0.017235
2074.2635,0.017432
2076.1272,0.017363
2077.9908,0.017271
2079.8545,0.017165
2081.7182,0.017083
2083.5819,0.017324
2085.4455,0.017279
2087.3092,0.017134
2089.1729,0.017023
2091.0365,0.016893
2092.9002,0.016565
2094.7639,0.016618
2096.6275,0.017187
2098.4912,0.017398
2100.3549,0.017057
2102.2185,0.016892
2104.0822,0.016798
2105.9459,0.017100
2107.8095,0.017273
2109.6732,0.017159
2111.5369,0.017024
2113.4006,0.017062
2115.2642,0.016877
2117.1279,0.016473
2118.9916,0.016130
2120.8552,0.015814
2122.7189,0.015126
2124.5826,0.014802
2126.4462,0.014831
2128.3099,0.014422
2130.1736,0.013911
2132.0372,0.013530
2133.9009,0.013167
2135.7646,0.013288
2137.6282,0.013568
2139.4919,0.013795
2141.3556,0.013450
2143.2193,0.013042
2145.0829,0.013278
2146.9466,0.013527
2148.8103,0.013089
2150.6739,0.012680
2152.5376,0.012226
2154.4013,0.011762
2156.2649,0.011834
2158.1286,0.013120
2159.9923,0.014899
2161.8559,0.016052
2163.7196,0.015818
2165.5833,0.015752
2167.4470,0.015799
2169.3106,0.015168
2171.1743,0.014059
2173.0380,0.013160
2174.9016,0.012690
2176.7653,0.013223
2178.6290,0.013520
2180.4926,0.013910
2182.3563,0.014159
2184.2200,0.014130
2186.0836,0.013825
2187.9473,0.013513
2189.8110,0.013266
2191.6746,0.013614
2193.5383,0.013494
2195.4020,0.013021
2197.2657,0.012720
2199.1293,0.012921
2200.9930,0.013081
2202.8567,0.013003
2204.7203,0.012410
2206.5840,0.012219
2208.4477,0.012188
2210.3113,0.012014
2212.1750,0.011700
2214.0387,0.012275
2215.9023,0.012280
2217.7660,0.011640
2219.6297,0.011465
2221.4934,0.011882
2223.3570,0.011854
2225.2207,0.011590
2227.0844,0.011241
2228.9480,0.011036
2230.8117,0.010765
2232.6754,0.010564
2234.5390,0.010733
2236.4027,0.010954
2238.2664,0.010577
2240.1300,0.010351
2241.9937,0.010357
2243.8574,0.010444
2245.7210,0.010204
2247.5847,0.010177
2249.4484,0.009798
2251.3121,0.009320
2253.1757,0.009310
2255.0394,0.009856
2256.9031,0.009914
2258.7667,0.009454
2260.6304,0.009193
2262.4941,0.009269
2264.3577,0.008924
2266.2214,0.008769
2268.0851,0.008950
2269.9487,0.008977
2271.8124,0.008848
2273.6761,0.008929
2275.5397,0.008917
2277.4034,0.008870
2279.2671,0.008722
2281.1308,0.008743
2282.9944,0.008742
2284.8581,0.008660
2286.7218,0.008604
2288.5854,0.008483
2290.4491,0.008006
2292.3128,0.007693
2294.1764,0.007689
2296.0401,0.007862
2297.9038,0.007688
2299.7674,0.007302
2301.6311,0.007175
2303.4948,0.007198
2305.3585,0.007137
2307.2221,0.007159
2309.0858,0.007195
2310.9495,0.007305
2312.8131,0.007339
2314.6768,0.007400
2316.5405,0.007340
2318.4041,0.007511
2320.2678,0.007773
2322.1315,0.008066
2323.9951,0.008000
2325.8588,0.007253
2327.7225,0.006348
2329.5861,0.006325
2331.4498,0.006217
2333.3135,0.006222
2335.1772,0.006334
2337.0408,0.006304
2338.9045,0.006367
2340.7682,0.006531
2342.6318,0.006450
2344.4955,0.006005
2346.3592,0.005297
2348.2228,0.004764
2350.0865,0.004355
2351.9502,0.004514
2353.8138,0.005094
2355.6775,0.005564
2357.5412,0.006031
2359.4049,0.006083
2361.2685,0.005860
2363.1322,0.005951
2364.9959,0.005878
2366.8595,0.005647
2368.7232,0.005403
2370.5869,0.004986
2372.4505,0.004506
2374.3142,0.004313
2376.1779,0.003905
2378.0415,0.003349
2379.9052,0.002900
2381.7689,0.002604
2383.6325,0.002315
2385.4962,0.002134
2387.3599,0.002011
2389.2236,0.001940
2391.0872,0.001714
2392.9509,0.001496
2394.8146,0.001397
2396.6782,0.001495
2398.5419,0.001489
2400.4056,0.001443
2402.2692,0.001441
2404.1329,0.001484
2405.9966,0.001419
2407.8602,0.001496
2409.7239,0.001475
2411.5876,0.001333
2413.4512,0.001220
2415.3149,0.001206
2417.1786,0.001096
2419.0423,0.001075
2420.9059,0.001057
2422.7696,0.001101
2424.6333,0.001126
2426.4969,0.001181
2428.3606,0.001157
2430.2243,0.001189
2432.0879,0.001161
2433.9516,0.001044
2435.8153,0.000855
2437.6789,0.000957
2439.5426,0.001036
2441.4063,0.000953
2443.2700,0.000985
2445.1336,0.000993
2446.9973,0.000891
2448.8610,0.000888
2450.7246,0.000694
2452.5883,0.000482
2454.4520,0.000506
2456.3156,0.000600
2458.1793,0.000478
2460.0430,0.000401
2461.9066,0.000381
2463.7703,0.000319
2465.6340,0.000185
2467.4976,0.000161
2469.3613,0.000056
2471.2250,0.000005
2473.0887,0.000052
2474.9523,0.000009
2476.8160,-0.000072
2478.6797,-0.000019
2480.5433,-0.000065
2482.4070,-0.000224
2484.2707,-0.000453
2486.1343,-0.000452
2487.9980,-0.000431
2489.8617,-0.000538
2491.7253,-0.000625
2493.5890,-0.000576
2495.4527,-0.000604
2497.3164,-0.000621
2499.1800,-0.000564
2501.0437,-0.000511
2502.9074,-0.000662
2504.7710,-0.000776
2506.6347,-0.000701
2508.4984,-0.000721
2510.3620,-0.000826
2512.2257,-0.000784
2514.0894,-0.000806
2515.9530,-0.000730
2517.8167,-0.000771
2519.6804,-0.000741
2521.5440,-0.000779
2523.4077,-0.000916
2525.2714,-0.001019
2527.1351,-0.001118
2528.9987,-0.001177
2530.8624,-0.001049
2532.7261,-0.000931
2534.5897,-0.000996
2536.4534,-0.001197
2538.3171,-0.001168
2540.1807,-0.001018
2542.0444,-0.000873
2543.9081,-0.001013
2545.7717,-0.001185
2547.6354,-0.001249
2549.4991,-0.001134
2551.3627,-0.001092
2553.2264,-0.001174
2555.0901,-0.001403
2556.9538,-0.001356
2558.8174,-0.001244
2560.6811,-0.001343
2562.5448,-0.001393
2564.4084,-0.001211
2566.2721,-0.001199
2568.1358,-0.001228
2569.9994,-0.001330
2571.8631,-0.001274
2573.7268,-0.001244
2575.5904,-0.001285
2577.4541,-0.001512
2579.3178,-0.001469
2581.1815,-0.001444
2583.0451,-0.001491
2584.9088,-0.001448
2586.7725,-0.001341
2588.6361,-0.001321
2590.4998,-0.001330
2592.3635,-0.001435
2594.2271,-0.001451
2596.0908,-0.001463
2597.9545,-0.001444
2599.8181,-0.001422
2601.6818,-0.001433
2603.5455,-0.001466
2605.4091,-0.001428
2607.2728,-0.001449
2609.1365,-0.001388
2611.0002,-0.001422
2612.8638,-0.001497
2614.7275,-0.001470
2616.5912,-0.001477
2618.4548,-0.001553
2620.3185,-0.001530
2622.1822,-0.001477
2624.0458,-0.001431
2625.9095,-0.001476
2627.7732,-0.001474
2629.6368,-0.001437
2631.5005,-0.001492
2633.3642,-0.001555
2635.2279,-0.001482
2637.0915,-0.001473
2638.9552,-0.001443
2640.8189,-0.001478
2642.6825,-0.001575
2644.5462,-0.001674
2646.4099,-0.001644
2648.2735,-0.001608
2650.1372,-0.001663
2652.0009,-0.001808
2653.8645,-0.001751
2655.7282,-0.001798
2657.5919,-0.001930
2659.4555,-0.001977
2661.3192,-0.002040
2663.1829,-0.002221
2665.0466,-0.002324
2666.9102,-0.002356
2668.7739,-0.002374
2670.6376,-0.002393
2672.5012,-0.002353
2674.3649,-0.002312
2676.2286,-0.002324
2678.0922,-0.002408
2679.9559,-0.002424
2681.8196,-0.002421
2683.6832,-0.002380
2685.5469,-0.002388
2687.4106,-0.002322
2689.2742,-0.002331
2691.1379,-0.002391
2693.0016,-0.002381
2694.8653,-0.002256
2696.7289,-0.002212
2698.5926,-0.002263
2700.4563,-0.002366
2702.3199,-0.002315
2704.1836,-0.002243
2706.0473,-0.002166
2707.9109,-0.002113
2709.7746,-0.002114
2711.6383,-0.002075
2713.5019,-0.002004
2715.3656,-0.002023
2717.2293,-0.001959
2719.0930,-0.001938
2720.9566,-0.001950
2722.8203,-0.001924
2724.6840,-0.001881
2726.5476,-0.001956
2728.4113,-0.001896
2730.2750,-0.001802
2732.1386,-0.001726
2734.0023,-0.001623
2735.8660,-0.001533
2737.7296,-0.001554
2739.5933,-0.001547
2741.4570,-0.001523
2743.3206,-0.001463
2745.1843,-0.001408
2747.0480,-0.001434
2748.9117,-0.001357
2750.7753,-0.001200
2752.6390,-0.001226
2754.5027,-0.001337
2756.3663,-0.001371
2758.2300,-0.001199
2760.0937,-0.001069
2761.9573,-0.000969
2763.8210,-0.000889
2765.6847,-0.000914
2767.5483,-0.000935
2769.4120,-0.000848
2771.2757,-0.000806
2773.1394,-0.000700
2775.0030,-0.000620
2776.8667,-0.000601
2778.7304,-0.000574
2780.5940,-0.000429
2782.4577,-0.000298
2784.3214,-0.000158
2786.1850,-0.000112
2788.0487,-0.000055
2789.9124,0.000065
2791.7760,0.000076
2793.6397,0.000069
2795.5034,0.000207
2797.3670,0.000348
2799.2307,0.000416
2801.0944,0.000434
2802.9581,0.000543
2804.8217,0.000683
2806.6854,0.000792
2808.5491,0.000838
2810.4127,0.000946
2812.2764,0.001045
2814.1401,0.001209
2816.0037,0.001321
2817.8674,0.001436
2819.7311,0.001461
2821.5947,0.001552
2823.4584,0.001697
2825.3221,0.001856
2827.1857,0.002011
2829.0494,0.002163
2830.9131,0.002227
2832.7768,0.002447
2834.6404,0.002645
2836.5041,0.002764
2838.3678,0.002887
2840.2314,0.003024
2842.0951,0.003132
2843.9588,0.003378
2845.8224,0.003575
2847.6861,0.003771
2849.5498,0.003956
2851.4134,0.004159
2853.2771,0.004275
2855.1408,0.004529
2857.0045,0.004754
2858.8681,0.004860
2860.7318,0.004820
2862.5955,0.004937
2864.4591,0.005141
2866.3228,0.005364
2868.1865,0.005555
2870.0501,0.005828
2871.9138,0.006058
2873.7775,0.006237
2875.6411,0.006312
2877.5048,0.006422
2879.3685,0.006540
2881.2321,0.006763
2883.0958,0.006901
2884.9595,0.007072
2886.8232,0.007324
2888.6868,0.007594
2890.5505,0.007801
2892.4142,0.008082
2894.2778,0.008322
2896.1415,0.008510
2898.0052,0.008700
2899.8688,0.009006
2901.7325,0.009226
2903.5962,0.009487
2905.4598,0.009825
2907.3235,0.010161
2909.1872,0.010417
2911.0509,0.010759
2912.9145,0.010954
2914.7782,0.011144
2916.6419,0.011385
2918.5055,0.011778
2920.3692,0.012137
2922.2329,0.012452
2924.0965,0.012637
2925.9602,0.012907
2927.8239,0.013212
2929.6875,0.013555
2931.5512,0.013819
2933.4149,0.014088
2935.2785,0.014424
2937.1422,0.014759
2939.0059,0.014978
2940.8696,0.015362
2942.7332,0.015673
2944.5969,0.015889
2946.4606,0.016077
2948.3242,0.016328
2950.1879,0.016599
2952.0516,0.016971
2953.9152,0.017383
2955.7789,0.017781
2957.6426,0.017974
2959.5062,0.018335
2961.3699,0.018704
2963.2336,0.018881
2965.0972,0.019102
2966.9609,0.019567
2968.8246,0.019879
2970.6883,0.020255
2972.5519,0.020661
2974.4156,0.021046
2976.2793,0.021371
2978.1429,0.021791
2980.0066,0.022175
2981.8703,0.022553
2983.7339,0.022930
2985.5976,0.023367
2987.4613,0.023796
2989.3249,0.024286
2991.1886,0.024799
2993.0523,0.025423
2994.9160,0.025915
2996.7796,0.026443
2998.6433,0.026979
3000.5070,0.027529
3002.3706,0.028023
3004.2343,0.028574
3006.0980,0.029151
3007.9616,0.029858
3009.8253,0.030503
3011.6890,0.031078
3013.5526,0.031600
3015.4163,0.032264
3017.2800,0.032890
3019.1436,0.033635
3021.0073,0.034366
3022.8710,0.035041
3024.7347,0.035693
3026.5983,0.036430
3028.4620,0.037195
3030.3257,0.038067
3032.1893,0.038803
3034.0530,0.039616
3035.9167,0.040378
3037.7803,0.041197
3039.6440,0.042055
3041.5077,0.042843
3043.3713,0.043628
3045.2350,0.044492
3047.0987,0.045289
3048.9624,0.046143
3050.8260,0.046929
3052.6897,0.047992
3054.5534,0.049184
3056.4170,0.050245
3058.2807,0.051118
3060.1444,0.052014
3062.0080,0.052846
3063.8717,0.053978
3065.7354,0.055148
3067.5990,0.056317
3069.4627,0.057346
3071.3264,0.058350
3073.1900,0.059434
3075.0537,0.060508
3076.9174,0.061616
3078.7811,0.063017
3080.6447,0.064212
3082.5084,0.065323
3084.3721,0.066473
3086.2357,0.067823
3088.0994,0.069201
3089.9631,0.070482
3091.8267,0.071760
3093.6904,0.073141
3095.5541,0.074472
3097.4177,0.075936
3099.2814,0.077378
3101.1451,0.078829
3103.0087,0.080246
3104.8724,0.081753
3106.7361,0.083145
3108.5998,0.084643
3110.4634,0.086294
3112.3271,0.088006
3114.1908,0.089553
3116.0544,0.091220
3117.9181,0.092947
3119.7818,0.094807
3121.6454,0.096750
3123.5091,0.098667
3125.3728,0.100370
3127.2364,0.102197
3129.1001,0.104024
3130.9638,0.105843
3132.8275,0.107642
3134.6911,0.109447
3136.5548,0.111244
3138.4185,0.113322
3140.2821,0.115522
3142.1458,0.117865
3144.0095,0.120151
3145.8731,0.122200
3147.7368,0.123943
3149.6005,0.126075
3151.4641,0.128351
3153.3278,0.130467
3155.1915,0.132692
3157.0551,0.135188
3158.9188,0.137599
3160.7825,0.139742
3162.6462,0.141851
3164.5098,0.144318
3166.3735,0.146643
3168.2372,0.148929
3170.1008,0.151328
3171.9645,0.153668
3173.8282,0.155908
3175.6918,0.158257
3177.5555,0.160603
3179.4192,0.163044
3181.2828,0.165419
3183.1465,0.167818
3185.0102,0.170261
3186.8739,0.172707
3188.7375,0.175053
3190.6012,0.177341
3192.4649,0.179484
3194.3285,0.181671
3196.1922,0.184101
3198.0559,0.186519
3199.9195,0.188788
3201.7832,0.191130
3203.6469,0.193326
3205.5105,0.195378
3207.3742,0.197423
3209.2379,0.199584
3211.1015,0.201837
3212.9652,0.203781
3214.8289,0.205780
3216.6926,0.208085
3218.5562,0.210267
3220.4199,0.212214
3222.2836,0.213868
3224.1472,0.215305
3226.0109,0.217053
3227.8746,0.218936
3229.7382,0.220754
3231.6019,0.222270
3233.4656,0.223764
3235.3292,0.225527
3237.1929,0.227288
3239.0566,0.228797
3240.9202,0.230238
3242.7839,0.231455
3244.6476,0.232923
3246.5113,0.234374
3248.3749,0.235564
3250.2386,0.236707
3252.1023,0.238253
3253.9659,0.239808
3255.8296,0.240945
3257.6933,0.241840
3259.5569,0.243141
3261.4206,0.244407
3263.2843,0.245493
3265.1479,0.246451
3267.0116,0.247491
3268.8753,0.248389
3270.7390,0.249619
3272.6026,0.251233
3274.4663,0.252708
3276.3300,0.253661
3278.1936,0.254570
3280.0573,0.255384
3281.9210,0.256601
3283.7846,0.257695
3285.6483,0.258912
3287.5120,0.260101
3289.3756,0.261191
3291.2393,0.262141
3293.1030,0.263284
3294.9666,0.264384
3296.8303,0.266023
3298.6940,0.267386
3300.5577,0.268349
3302.4213,0.269041
3304.2850,0.270106
3306.1487,0.271415
3308.0123,0.273280
3309.8760,0.274801
3311.7397,0.276235
3313.6033,0.277300
3315.4670,0.278613
3317.3307,0.279750
3319.1943,0.280774
3321.0580,0.281634
3322.9217,0.282843
3324.7854,0.283713
3326.6490,0.285088
3328.5127,0.286796
3330.3764,0.288541
3332.2400,0.289077
3334.1037,0.289757
3335.9674,0.290763
3337.8310,0.291917
3339.6947,0.292648
3341.5584,0.293957
3343.4220,0.294945
3345.2857,0.295966
3347.1494,0.296377
3349.0130,0.296918
3350.8767,0.297602
3352.7404,0.298768
3354.6041,0.299434
3356.4677,0.300070
3358.3314,0.300022
3360.1951,0.300293
3362.0587,0.300485
3363.9224,0.300877
3365.7861,0.300441
3367.6497,0.300487
3369.5134,0.301039
3371.3771,0.302389
3373.2407,0.302408
3375.1044,0.302086
3376.9681,0.301524
3378.8317,0.301404
3380.6954,0.300970
3382.5591,0.300743
3384.4228,0.299702
3386.2864,0.298913
3388.1501,0.297530
3390.0138,0.296245
3391.8774,0.295352
3393.7411,0.295902
3395.6048,0.295211
3397.4684,0.293819
3399.3321,0.292260
3401.1958,0.291886
3403.0594,0.291735
3404.9231,0.291090
3406.7868,0.288810
3408.6505,0.287354
3410.5141,0.285919
3412.3778,0.284850
3414.2415,0.283572
3416.1051,0.282870
3417.9688,0.280793
3419.8325,0.279197
3421.6961,0.277476
3423.5598,0.275821
3425.4235,0.273379
3427.2871,0.271442
3429.1508,0.269173
3431.0145,0.267813
3432.8781,0.265996
3434.7418,0.264385
3436.6055,0.263065
3438.4692,0.262595
3440.3328,0.260896
3442.1965,0.258720
3444.0602,0.255936
3445.9238,0.253927
3447.7875,0.251704
3449.6512,0.250224
3451.5148,0.247815
3453.3785,0.245463
3455.2422,0.242872
3457.1058,0.240851
3458.9695,0.238237
3460.8332,0.236645
3462.6969,0.234619
3464.5605,0.232095
3466.4242,0.229019
3468.2879,0.227474
3470.1515,0.226154
3472.0152,0.224594
3473.8789,0.221809
3475.7425,0.219554
3477.6062,0.217056
3479.4699,0.214802
3481.3335,0.212592
3483.1972,0.211065
3485.0609,0.208348
3486.9245,0.205768
3488.7882,0.203318
3490.6519,0.201328
3492.5156,0.198760
3494.3792,0.196665
3496.2429,0.193980
3498.1066,0.192090
3499.9702,0.190131
3501.8339,0.188247
3503.6976,0.186150
3505.5612,0.184813
3507.4249,0.182116
3509.2886,0.179644
3511.1522,0.177022
3513.0159,0.174529
3514.8796,0.172212
3516.7432,0.170647
3518.6069,0.167989
3520.4706,0.165811
3522.3343,0.163578
3524.1979,0.162073
3526.0616,0.160306
3527.9253,0.158299
3529.7889,0.155928
3531.6526,0.153866
3533.5163,0.151082
3535.3799,0.149245
3537.2436,0.147402
3539.1073,0.145454
3540.9709,0.142776
3542.8346,0.140610
3544.6983,0.138784
3546.5620,0.137745
3548.4256,0.135961
3550.2893,0.133651
3552.1530,0.131201
3554.0166,0.129226
3555.8803,0.126950
3557.7440,0.125171
3559.6076,0.122832
3561.4713,0.121059
3563.3350,0.119379
3565.1986,0.117889
3567.0623,0.115960
3568.9260,0.114622
3570.7896,0.112712
3572.6533,0.110563
3574.5170,0.108305
3576.3807,0.106414
3578.2443,0.104333
3580.1080,0.102453
3581.9717,0.100305
3583.8353,0.098607
3585.6990,0.097319
3587.5627,0.096300
3589.4263,0.095086
3591.2900,0.093059
3593.1537,0.090311
3595.0173,0.088649
3596.8810,0.087181
3598.7447,0.085285
3600.6084,0.083191
3602.4720,0.082035
3604.3357,0.080453
3606.1994,0.078650
3608.0630,0.076900
3609.9267,0.075555
3611.7904,0.073886
3613.6540,0.072034
3615.5177,0.070345
3617.3814,0.068686
3619.2450,0.066937
3621.1087,0.065297
3622.9724,0.063269
3624.8360,0.061414
3626.6997,0.059828
3628.5634,0.058587
3630.4271,0.057339
3632.2907,0.055677
3634.1544,0.053273
3636.0181,0.051363
3637.8817,0.049256
3639.7454,0.047601
3641.6091,0.045937
3643.4727,0.044122
3645.3364,0.042412
3647.2001,0.041109
3649.0637,0.039988
3650.9274,0.038570
3652.7911,0.036663
3654.6547,0.034726
3656.5184,0.032899
3658.3821,0.031847
3660.2458,0.030010
3662.1094,0.028302
3663.9731,0.026922
3665.8368,0.025798
3667.7004,0.024603
3669.5641,0.023446
3671.4278,0.022735
3673.2914,0.021881
3675.1551,0.020186
3677.0188,0.019538
3678.8824,0.018525
3680.7461,0.017114
3682.6098,0.016254
3684.4735,0.015363
3686.3371,0.014858
3688.2008,0.014172
3690.0645,0.013947
3691.9281,0.013329
3693.7918,0.012292
3695.6555,0.011606
3697.5191,0.011048
3699.3828,0.010607
3701.2465,0.010090
3703.1101,0.009678
3704.9738,0.009133
3706.8375,0.008541
3708.7011,0.008255
3710.5648,0.008026
3712.4285,0.007884
3714.2922,0.007518
3716.1558,0.006917
3718.0195,0.006479
3719.8832,0.006398
3721.7468,0.006152
3723.6105,0.006077
3725.4742,0.005964
3727.3378,0.005595
3729.2015,0.005407
3731.0652,0.004989
3732.9288,0.004963
3734.7925,0.005040
3736.6562,0.004464
3738.5199,0.004376
3740.3835,0.004135
3742.2472,0.004185
3744.1109,0.004032
3745.9745,0.004498
3747.8382,0.004416
3749.7019,0.003658
3751.5655,0.004359
3753.4292,0.004104
3755.2929,0.003600
3757.1565,0.003042
3759.0202,0.003262
3760.8839,0.003214
3762.7475,0.003164
3764.6112,0.002823
3766.4749,0.002899
3768.3386,0.002849
3770.2022,0.002687
3772.0659,0.002887
3773.9296,0.002705
3775.7932,0.002563
3777.6569,0.002483
3779.5206,0.002271
3781.3842,0.002527
3783.2479,0.002225
3785.1116,0.001814
3786.9752,0.002011
3788.8389,0.001933
3790.7026,0.001636
3792.5662,0.001639
3794.4299,0.001644
3796.2936,0.001497
3798.1573,0.001795
3800.0209,0.001778
3801.8846,0.001508
3803.7483,0.001833
3805.6119,0.001217
3807.4756,0.001025
3809.3393,0.001380
3811.2029,0.001167
3813.0666,0.001198
3814.9303,0.001271
3816.7939,0.001429
3818.6576,0.001573
3820.5213,0.000839
3822.3850,0.001233
3824.2486,0.001159
3826.1123,0.000634
3827.9760,0.000685
3829.8396,0.000801
3831.7033,0.000524
3833.5670,0.000908
3835.4306,0.000999
3837.2943,0.001062
3839.1580,0.000947
3841.0216,0.000863
3842.8853,0.000535
3844.7490,0.000462
3846.6126,0.000376
3848.4763,0.000407
3850.3400,0.000546
3852.2037,0.000626
3854.0673,0.000734
3855.9310,0.001073
3857.7947,0.000397
3859.6583,0.000231
3861.5220,0.000117
3863.3857,0.000418
3865.2493,0.000504
3867.1130,0.000636
3868.9767,0.000086
3870.8403,0.000371
3872.7040,0.000739
3874.5677,0.000284
3876.4314,0.000349
3878.2950,0.000178
3880.1587,0.000208
3882.0224,0.000546
3883.8860,0.000381
3885.7497,0.000295
3887.6134,0.000642
3889.4770,0.000399
3891.3407,0.000020
3893.2044,0.000083
3895.0680,0.000078
3896.9317,0.000128
3898.7954,0.000200
3900.6590,0.000463
3902.5227,0.000443
3904.3864,0.000521
3906.2501,0.000543
3908.1137,0.000176
3909.9774,-0.000113
3911.8411,-0.000006
3913.7047,0.000211
3915.5684,0.000333
3917.4321,0.000257
3919.2957,0.000081
3921.1594,-0.000092
3923.0231,0.000024
3924.8867,0.000085
3926.7504,0.000303
3928.6141,0.000016
3930.4777,0.000167
3932.3414,0.000411
3934.2051,0.000461
3936.0688,0.000178
3937.9324,0.000044
3939.7961,0.000155
3941.6598,0.000129
3943.5234,0.000136
3945.3871,0.000250
3947.2508,0.000044
3949.1144,0.000149
3950.9781,0.000201
3952.8418,0.000150
3954.7054,-0.000074
3956.5691,-0.000058
3958.4328,-0.000125
3960.2965,-0.000028
3962.1601,-0.000086
3964.0238,-0.000209
3965.8875,-0.000151
3967.7511,-0.000051
3969.6148,-0.000098
3971.4785,-0.000014
3973.3421,-0.000109
3975.2058,-0.000164
3977.0695,-0.000150
3978.9331,-0.000174
3980.7968,-0.000304
3982.6605,-0.000276
3984.5241,-0.000302
3986.3878,-0.000373
3988.2515,-0.000458
3990.1152,-0.000250
3991.9788,-0.000284
3993.8425,-0.000387
3995.7062,-0.000469
3997.5698,-0.000611
3999.4335,-0.000678
